 # Tag              Time [sec]                Mass [g]             posx [code]             posy [code]             velx [code]             vely [code]             accx [code]             accy [code]
     2      0.315360000000E+03      0.397800000000E+34      0.000000000000E+00      0.000000000000E+00      0.000000000000E+00      0.000000000000E+00      0.000000000000E+00      0.000000000000E+00
     2      0.157711536000E+07      0.397800000000E+34      0.000000000000E+00      0.000000000000E+00      0.000000000000E+00      0.000000000000E+00      0.000000000000E+00      0.000000000000E+00
     2      0.315391536000E+07      0.397800000000E+34      0.000000000000E+00      0.000000000000E+00      0.000000000000E+00      0.000000000000E+00      0.000000000000E+00      0.000000000000E+00
     2      0.473071536000E+07      0.397800000000E+34      0.000000000000E+00      0.000000000000E+00      0.000000000000E+00      0.000000000000E+00      0.000000000000E+00      0.000000000000E+00
     2      0.630751536000E+07      0.397800000000E+34      0.000000000000E+00      0.000000000000E+00      0.000000000000E+00      0.000000000000E+00      0.000000000000E+00      0.000000000000E+00
     2      0.788431536000E+07      0.397800000000E+34      0.000000000000E+00      0.000000000000E+00      0.000000000000E+00      0.000000000000E+00      0.000000000000E+00      0.000000000000E+00
     2      0.946111536000E+07      0.397800000000E+34      0.000000000000E+00      0.000000000000E+00      0.000000000000E+00      0.000000000000E+00      0.000000000000E+00      0.000000000000E+00
     2      0.110379153600E+08      0.397800000000E+34      0.000000000000E+00      0.000000000000E+00      0.000000000000E+00      0.000000000000E+00      0.000000000000E+00      0.000000000000E+00
     2      0.126147153600E+08      0.397800000000E+34      0.000000000000E+00      0.000000000000E+00      0.000000000000E+00      0.000000000000E+00      0.000000000000E+00      0.000000000000E+00
     2      0.141915153600E+08      0.397800000000E+34      0.000000000000E+00      0.000000000000E+00      0.000000000000E+00      0.000000000000E+00      0.000000000000E+00      0.000000000000E+00
     2      0.157683153600E+08      0.397800000000E+34      0.000000000000E+00      0.000000000000E+00      0.000000000000E+00      0.000000000000E+00      0.000000000000E+00      0.000000000000E+00
     2      0.173451153600E+08      0.397800000000E+34      0.000000000000E+00      0.000000000000E+00      0.000000000000E+00      0.000000000000E+00      0.000000000000E+00      0.000000000000E+00
     2      0.189219153600E+08      0.397800000000E+34      0.000000000000E+00      0.000000000000E+00      0.000000000000E+00      0.000000000000E+00      0.000000000000E+00      0.000000000000E+00
     2      0.204987153600E+08      0.397800000000E+34      0.000000000000E+00      0.000000000000E+00      0.000000000000E+00      0.000000000000E+00      0.000000000000E+00      0.000000000000E+00
     2      0.220755153600E+08      0.397800000000E+34      0.000000000000E+00      0.000000000000E+00      0.000000000000E+00      0.000000000000E+00      0.000000000000E+00      0.000000000000E+00
     2      0.236523153600E+08      0.397800000000E+34      0.000000000000E+00      0.000000000000E+00      0.000000000000E+00      0.000000000000E+00      0.000000000000E+00      0.000000000000E+00
     2      0.252291153600E+08      0.397800000000E+34      0.000000000000E+00      0.000000000000E+00      0.000000000000E+00      0.000000000000E+00      0.000000000000E+00      0.000000000000E+00
     2      0.268059153600E+08      0.397800000000E+34      0.000000000000E+00      0.000000000000E+00      0.000000000000E+00      0.000000000000E+00      0.000000000000E+00      0.000000000000E+00
     2      0.283827153600E+08      0.397800000000E+34      0.000000000000E+00      0.000000000000E+00      0.000000000000E+00      0.000000000000E+00      0.000000000000E+00      0.000000000000E+00
     2      0.299595153600E+08      0.397800000000E+34      0.000000000000E+00      0.000000000000E+00      0.000000000000E+00      0.000000000000E+00      0.000000000000E+00      0.000000000000E+00
     2      0.315363153600E+08      0.397800000000E+34      0.000000000000E+00      0.000000000000E+00      0.000000000000E+00      0.000000000000E+00      0.000000000000E+00      0.000000000000E+00
     2      0.331131153600E+08      0.397800000000E+34      0.000000000000E+00      0.000000000000E+00      0.000000000000E+00      0.000000000000E+00      0.000000000000E+00      0.000000000000E+00
     2      0.346899153600E+08      0.397800000000E+34      0.000000000000E+00      0.000000000000E+00      0.000000000000E+00      0.000000000000E+00      0.000000000000E+00      0.000000000000E+00
     2      0.362667153600E+08      0.397800000000E+34      0.000000000000E+00      0.000000000000E+00      0.000000000000E+00      0.000000000000E+00      0.000000000000E+00      0.000000000000E+00
     2      0.378435153599E+08      0.397800000000E+34      0.000000000000E+00      0.000000000000E+00      0.000000000000E+00      0.000000000000E+00      0.000000000000E+00      0.000000000000E+00
     2      0.394203153599E+08      0.397800000000E+34      0.000000000000E+00      0.000000000000E+00      0.000000000000E+00      0.000000000000E+00      0.000000000000E+00      0.000000000000E+00
     2      0.409971153599E+08      0.397800000000E+34      0.000000000000E+00      0.000000000000E+00      0.000000000000E+00      0.000000000000E+00      0.000000000000E+00      0.000000000000E+00
     2      0.425739153599E+08      0.397800000000E+34      0.000000000000E+00      0.000000000000E+00      0.000000000000E+00      0.000000000000E+00      0.000000000000E+00      0.000000000000E+00
     2      0.441507153599E+08      0.397800000000E+34      0.000000000000E+00      0.000000000000E+00      0.000000000000E+00      0.000000000000E+00      0.000000000000E+00      0.000000000000E+00
     2      0.457275153599E+08      0.397800000000E+34      0.000000000000E+00      0.000000000000E+00      0.000000000000E+00      0.000000000000E+00      0.000000000000E+00      0.000000000000E+00
     2      0.473043153599E+08      0.397800000000E+34      0.000000000000E+00      0.000000000000E+00      0.000000000000E+00      0.000000000000E+00      0.000000000000E+00      0.000000000000E+00
     2      0.488811153599E+08      0.397800000000E+34      0.000000000000E+00      0.000000000000E+00      0.000000000000E+00      0.000000000000E+00      0.000000000000E+00      0.000000000000E+00
     2      0.504579153599E+08      0.397800000000E+34      0.000000000000E+00      0.000000000000E+00      0.000000000000E+00      0.000000000000E+00      0.000000000000E+00      0.000000000000E+00
     2      0.520347153599E+08      0.397800000000E+34      0.000000000000E+00      0.000000000000E+00      0.000000000000E+00      0.000000000000E+00      0.000000000000E+00      0.000000000000E+00
     2      0.536115153599E+08      0.397800000000E+34      0.000000000000E+00      0.000000000000E+00      0.000000000000E+00      0.000000000000E+00      0.000000000000E+00      0.000000000000E+00
     2      0.551883153599E+08      0.397800000000E+34      0.000000000000E+00      0.000000000000E+00      0.000000000000E+00      0.000000000000E+00      0.000000000000E+00      0.000000000000E+00
     2      0.567651153599E+08      0.397800000000E+34      0.000000000000E+00      0.000000000000E+00      0.000000000000E+00      0.000000000000E+00      0.000000000000E+00      0.000000000000E+00
     2      0.583419153599E+08      0.397800000000E+34      0.000000000000E+00      0.000000000000E+00      0.000000000000E+00      0.000000000000E+00      0.000000000000E+00      0.000000000000E+00
     2      0.599187153599E+08      0.397800000000E+34      0.000000000000E+00      0.000000000000E+00      0.000000000000E+00      0.000000000000E+00      0.000000000000E+00      0.000000000000E+00
     2      0.614955153599E+08      0.397800000000E+34      0.000000000000E+00      0.000000000000E+00      0.000000000000E+00      0.000000000000E+00      0.000000000000E+00      0.000000000000E+00
     2      0.630723153599E+08      0.397800000000E+34      0.000000000000E+00      0.000000000000E+00      0.000000000000E+00      0.000000000000E+00      0.000000000000E+00      0.000000000000E+00
     2      0.646491153599E+08      0.397800000000E+34      0.000000000000E+00      0.000000000000E+00      0.000000000000E+00      0.000000000000E+00      0.000000000000E+00      0.000000000000E+00
     2      0.662259153599E+08      0.397800000000E+34      0.000000000000E+00      0.000000000000E+00      0.000000000000E+00      0.000000000000E+00      0.000000000000E+00      0.000000000000E+00
     2      0.678027153599E+08      0.397800000000E+34      0.000000000000E+00      0.000000000000E+00      0.000000000000E+00      0.000000000000E+00      0.000000000000E+00      0.000000000000E+00
     2      0.693795153599E+08      0.397800000000E+34      0.000000000000E+00      0.000000000000E+00      0.000000000000E+00      0.000000000000E+00      0.000000000000E+00      0.000000000000E+00
     2      0.709563153599E+08      0.397800000000E+34      0.000000000000E+00      0.000000000000E+00      0.000000000000E+00      0.000000000000E+00      0.000000000000E+00      0.000000000000E+00
     2      0.725331153599E+08      0.397800000000E+34      0.000000000000E+00      0.000000000000E+00      0.000000000000E+00      0.000000000000E+00      0.000000000000E+00      0.000000000000E+00
     2      0.741099153599E+08      0.397800000000E+34      0.000000000000E+00      0.000000000000E+00      0.000000000000E+00      0.000000000000E+00      0.000000000000E+00      0.000000000000E+00
     2      0.756867153599E+08      0.397800000000E+34      0.000000000000E+00      0.000000000000E+00      0.000000000000E+00      0.000000000000E+00      0.000000000000E+00      0.000000000000E+00
     2      0.772635153599E+08      0.397800000000E+34      0.000000000000E+00      0.000000000000E+00      0.000000000000E+00      0.000000000000E+00      0.000000000000E+00      0.000000000000E+00
     2      0.788403153599E+08      0.397800000000E+34      0.000000000000E+00      0.000000000000E+00      0.000000000000E+00      0.000000000000E+00      0.000000000000E+00      0.000000000000E+00
     2      0.804171153599E+08      0.397800000000E+34      0.000000000000E+00      0.000000000000E+00      0.000000000000E+00      0.000000000000E+00      0.000000000000E+00      0.000000000000E+00
     2      0.819939153599E+08      0.397800000000E+34      0.000000000000E+00      0.000000000000E+00      0.000000000000E+00      0.000000000000E+00      0.000000000000E+00      0.000000000000E+00
     2      0.835707153599E+08      0.397800000000E+34      0.000000000000E+00      0.000000000000E+00      0.000000000000E+00      0.000000000000E+00      0.000000000000E+00      0.000000000000E+00
     2      0.851475153599E+08      0.397800000000E+34      0.000000000000E+00      0.000000000000E+00      0.000000000000E+00      0.000000000000E+00      0.000000000000E+00      0.000000000000E+00
     2      0.867243153599E+08      0.397800000000E+34      0.000000000000E+00      0.000000000000E+00      0.000000000000E+00      0.000000000000E+00      0.000000000000E+00      0.000000000000E+00
     2      0.883011153599E+08      0.397800000000E+34      0.000000000000E+00      0.000000000000E+00      0.000000000000E+00      0.000000000000E+00      0.000000000000E+00      0.000000000000E+00
     2      0.898779153598E+08      0.397800000000E+34      0.000000000000E+00      0.000000000000E+00      0.000000000000E+00      0.000000000000E+00      0.000000000000E+00      0.000000000000E+00
     2      0.914547153598E+08      0.397800000000E+34      0.000000000000E+00      0.000000000000E+00      0.000000000000E+00      0.000000000000E+00      0.000000000000E+00      0.000000000000E+00
     2      0.930315153598E+08      0.397800000000E+34      0.000000000000E+00      0.000000000000E+00      0.000000000000E+00      0.000000000000E+00      0.000000000000E+00      0.000000000000E+00
     2      0.946083153598E+08      0.397800000000E+34      0.000000000000E+00      0.000000000000E+00      0.000000000000E+00      0.000000000000E+00      0.000000000000E+00      0.000000000000E+00
     2      0.961851153598E+08      0.397800000000E+34      0.000000000000E+00      0.000000000000E+00      0.000000000000E+00      0.000000000000E+00      0.000000000000E+00      0.000000000000E+00
     2      0.977619153598E+08      0.397800000000E+34      0.000000000000E+00      0.000000000000E+00      0.000000000000E+00      0.000000000000E+00      0.000000000000E+00      0.000000000000E+00
     2      0.993387153598E+08      0.397800000000E+34      0.000000000000E+00      0.000000000000E+00      0.000000000000E+00      0.000000000000E+00      0.000000000000E+00      0.000000000000E+00
     2      0.100915515360E+09      0.397800000000E+34      0.000000000000E+00      0.000000000000E+00      0.000000000000E+00      0.000000000000E+00      0.000000000000E+00      0.000000000000E+00
     2      0.102492315360E+09      0.397800000000E+34      0.000000000000E+00      0.000000000000E+00      0.000000000000E+00      0.000000000000E+00      0.000000000000E+00      0.000000000000E+00
     2      0.104069115360E+09      0.397800000000E+34      0.000000000000E+00      0.000000000000E+00      0.000000000000E+00      0.000000000000E+00      0.000000000000E+00      0.000000000000E+00
     2      0.105645915360E+09      0.397800000000E+34      0.000000000000E+00      0.000000000000E+00      0.000000000000E+00      0.000000000000E+00      0.000000000000E+00      0.000000000000E+00
     2      0.107222715360E+09      0.397800000000E+34      0.000000000000E+00      0.000000000000E+00      0.000000000000E+00      0.000000000000E+00      0.000000000000E+00      0.000000000000E+00
     2      0.108799515360E+09      0.397800000000E+34      0.000000000000E+00      0.000000000000E+00      0.000000000000E+00      0.000000000000E+00      0.000000000000E+00      0.000000000000E+00
     2      0.110376315360E+09      0.397800000000E+34      0.000000000000E+00      0.000000000000E+00      0.000000000000E+00      0.000000000000E+00      0.000000000000E+00      0.000000000000E+00
     2      0.111953115360E+09      0.397800000000E+34      0.000000000000E+00      0.000000000000E+00      0.000000000000E+00      0.000000000000E+00      0.000000000000E+00      0.000000000000E+00
     2      0.113529915360E+09      0.397800000000E+34      0.000000000000E+00      0.000000000000E+00      0.000000000000E+00      0.000000000000E+00      0.000000000000E+00      0.000000000000E+00
     2      0.115106715360E+09      0.397800000000E+34      0.000000000000E+00      0.000000000000E+00      0.000000000000E+00      0.000000000000E+00      0.000000000000E+00      0.000000000000E+00
     2      0.116683515360E+09      0.397800000000E+34      0.000000000000E+00      0.000000000000E+00      0.000000000000E+00      0.000000000000E+00      0.000000000000E+00      0.000000000000E+00
     2      0.118260315360E+09      0.397800000000E+34      0.000000000000E+00      0.000000000000E+00      0.000000000000E+00      0.000000000000E+00      0.000000000000E+00      0.000000000000E+00
     2      0.119837115360E+09      0.397800000000E+34      0.000000000000E+00      0.000000000000E+00      0.000000000000E+00      0.000000000000E+00      0.000000000000E+00      0.000000000000E+00
     2      0.121413915360E+09      0.397800000000E+34      0.000000000000E+00      0.000000000000E+00      0.000000000000E+00      0.000000000000E+00      0.000000000000E+00      0.000000000000E+00
     2      0.122990715360E+09      0.397800000000E+34      0.000000000000E+00      0.000000000000E+00      0.000000000000E+00      0.000000000000E+00      0.000000000000E+00      0.000000000000E+00
     2      0.124567515360E+09      0.397800000000E+34      0.000000000000E+00      0.000000000000E+00      0.000000000000E+00      0.000000000000E+00      0.000000000000E+00      0.000000000000E+00
     2      0.126144315360E+09      0.397800000000E+34      0.000000000000E+00      0.000000000000E+00      0.000000000000E+00      0.000000000000E+00      0.000000000000E+00      0.000000000000E+00
     2      0.127721115360E+09      0.397800000000E+34      0.000000000000E+00      0.000000000000E+00      0.000000000000E+00      0.000000000000E+00      0.000000000000E+00      0.000000000000E+00
     2      0.129297915360E+09      0.397800000000E+34      0.000000000000E+00      0.000000000000E+00      0.000000000000E+00      0.000000000000E+00      0.000000000000E+00      0.000000000000E+00
     2      0.130874715360E+09      0.397800000000E+34      0.000000000000E+00      0.000000000000E+00      0.000000000000E+00      0.000000000000E+00      0.000000000000E+00      0.000000000000E+00
     2      0.132451515360E+09      0.397800000000E+34      0.000000000000E+00      0.000000000000E+00      0.000000000000E+00      0.000000000000E+00      0.000000000000E+00      0.000000000000E+00
     2      0.134028315360E+09      0.397800000000E+34      0.000000000000E+00      0.000000000000E+00      0.000000000000E+00      0.000000000000E+00      0.000000000000E+00      0.000000000000E+00
     2      0.135605115360E+09      0.397800000000E+34      0.000000000000E+00      0.000000000000E+00      0.000000000000E+00      0.000000000000E+00      0.000000000000E+00      0.000000000000E+00
     2      0.137181915360E+09      0.397800000000E+34      0.000000000000E+00      0.000000000000E+00      0.000000000000E+00      0.000000000000E+00      0.000000000000E+00      0.000000000000E+00
     2      0.138758715360E+09      0.397800000000E+34      0.000000000000E+00      0.000000000000E+00      0.000000000000E+00      0.000000000000E+00      0.000000000000E+00      0.000000000000E+00
     2      0.140335515360E+09      0.397800000000E+34      0.000000000000E+00      0.000000000000E+00      0.000000000000E+00      0.000000000000E+00      0.000000000000E+00      0.000000000000E+00
     2      0.141912315360E+09      0.397800000000E+34      0.000000000000E+00      0.000000000000E+00      0.000000000000E+00      0.000000000000E+00      0.000000000000E+00      0.000000000000E+00
     2      0.143489115360E+09      0.397800000000E+34      0.000000000000E+00      0.000000000000E+00      0.000000000000E+00      0.000000000000E+00      0.000000000000E+00      0.000000000000E+00
     2      0.145065915360E+09      0.397800000000E+34      0.000000000000E+00      0.000000000000E+00      0.000000000000E+00      0.000000000000E+00      0.000000000000E+00      0.000000000000E+00
     2      0.146642715360E+09      0.397800000000E+34      0.000000000000E+00      0.000000000000E+00      0.000000000000E+00      0.000000000000E+00      0.000000000000E+00      0.000000000000E+00
     2      0.148219515360E+09      0.397800000000E+34      0.000000000000E+00      0.000000000000E+00      0.000000000000E+00      0.000000000000E+00      0.000000000000E+00      0.000000000000E+00
     2      0.149796315360E+09      0.397800000000E+34      0.000000000000E+00      0.000000000000E+00      0.000000000000E+00      0.000000000000E+00      0.000000000000E+00      0.000000000000E+00
     2      0.151373115361E+09      0.397800000000E+34      0.000000000000E+00      0.000000000000E+00      0.000000000000E+00      0.000000000000E+00      0.000000000000E+00      0.000000000000E+00
     2      0.152949915361E+09      0.397800000000E+34      0.000000000000E+00      0.000000000000E+00      0.000000000000E+00      0.000000000000E+00      0.000000000000E+00      0.000000000000E+00
     2      0.154526715361E+09      0.397800000000E+34      0.000000000000E+00      0.000000000000E+00      0.000000000000E+00      0.000000000000E+00      0.000000000000E+00      0.000000000000E+00
     2      0.156103515361E+09      0.397800000000E+34      0.000000000000E+00      0.000000000000E+00      0.000000000000E+00      0.000000000000E+00      0.000000000000E+00      0.000000000000E+00
     2      0.157680315361E+09      0.397800000000E+34      0.000000000000E+00      0.000000000000E+00      0.000000000000E+00      0.000000000000E+00      0.000000000000E+00      0.000000000000E+00
     2      0.159257115361E+09      0.397800000000E+34      0.000000000000E+00      0.000000000000E+00      0.000000000000E+00      0.000000000000E+00      0.000000000000E+00      0.000000000000E+00
     2      0.160833915361E+09      0.397800000000E+34      0.000000000000E+00      0.000000000000E+00      0.000000000000E+00      0.000000000000E+00      0.000000000000E+00      0.000000000000E+00
     2      0.162410715361E+09      0.397800000000E+34      0.000000000000E+00      0.000000000000E+00      0.000000000000E+00      0.000000000000E+00      0.000000000000E+00      0.000000000000E+00
     2      0.163987515361E+09      0.397800000000E+34      0.000000000000E+00      0.000000000000E+00      0.000000000000E+00      0.000000000000E+00      0.000000000000E+00      0.000000000000E+00
     2      0.165564315361E+09      0.397800000000E+34      0.000000000000E+00      0.000000000000E+00      0.000000000000E+00      0.000000000000E+00      0.000000000000E+00      0.000000000000E+00
     2      0.167141115361E+09      0.397800000000E+34      0.000000000000E+00      0.000000000000E+00      0.000000000000E+00      0.000000000000E+00      0.000000000000E+00      0.000000000000E+00
     2      0.168717915361E+09      0.397800000000E+34      0.000000000000E+00      0.000000000000E+00      0.000000000000E+00      0.000000000000E+00      0.000000000000E+00      0.000000000000E+00
     2      0.170294715361E+09      0.397800000000E+34      0.000000000000E+00      0.000000000000E+00      0.000000000000E+00      0.000000000000E+00      0.000000000000E+00      0.000000000000E+00
     2      0.171871515361E+09      0.397800000000E+34      0.000000000000E+00      0.000000000000E+00      0.000000000000E+00      0.000000000000E+00      0.000000000000E+00      0.000000000000E+00
     2      0.173448315362E+09      0.397800000000E+34      0.000000000000E+00      0.000000000000E+00      0.000000000000E+00      0.000000000000E+00      0.000000000000E+00      0.000000000000E+00
     2      0.175025115362E+09      0.397800000000E+34      0.000000000000E+00      0.000000000000E+00      0.000000000000E+00      0.000000000000E+00      0.000000000000E+00      0.000000000000E+00
     2      0.176601915362E+09      0.397800000000E+34      0.000000000000E+00      0.000000000000E+00      0.000000000000E+00      0.000000000000E+00      0.000000000000E+00      0.000000000000E+00
     2      0.178178715362E+09      0.397800000000E+34      0.000000000000E+00      0.000000000000E+00      0.000000000000E+00      0.000000000000E+00      0.000000000000E+00      0.000000000000E+00
     2      0.179755515362E+09      0.397800000000E+34      0.000000000000E+00      0.000000000000E+00      0.000000000000E+00      0.000000000000E+00      0.000000000000E+00      0.000000000000E+00
     2      0.181332315362E+09      0.397800000000E+34      0.000000000000E+00      0.000000000000E+00      0.000000000000E+00      0.000000000000E+00      0.000000000000E+00      0.000000000000E+00
     2      0.182909115362E+09      0.397800000000E+34      0.000000000000E+00      0.000000000000E+00      0.000000000000E+00      0.000000000000E+00      0.000000000000E+00      0.000000000000E+00
     2      0.184485915362E+09      0.397800000000E+34      0.000000000000E+00      0.000000000000E+00      0.000000000000E+00      0.000000000000E+00      0.000000000000E+00      0.000000000000E+00
     2      0.186062715362E+09      0.397800000000E+34      0.000000000000E+00      0.000000000000E+00      0.000000000000E+00      0.000000000000E+00      0.000000000000E+00      0.000000000000E+00
     2      0.187639515362E+09      0.397800000000E+34      0.000000000000E+00      0.000000000000E+00      0.000000000000E+00      0.000000000000E+00      0.000000000000E+00      0.000000000000E+00
     2      0.189216315362E+09      0.397800000000E+34      0.000000000000E+00      0.000000000000E+00      0.000000000000E+00      0.000000000000E+00      0.000000000000E+00      0.000000000000E+00
     2      0.190793115362E+09      0.397800000000E+34      0.000000000000E+00      0.000000000000E+00      0.000000000000E+00      0.000000000000E+00      0.000000000000E+00      0.000000000000E+00
     2      0.192369915362E+09      0.397800000000E+34      0.000000000000E+00      0.000000000000E+00      0.000000000000E+00      0.000000000000E+00      0.000000000000E+00      0.000000000000E+00
     2      0.193946715362E+09      0.397800000000E+34      0.000000000000E+00      0.000000000000E+00      0.000000000000E+00      0.000000000000E+00      0.000000000000E+00      0.000000000000E+00
     2      0.195523515363E+09      0.397800000000E+34      0.000000000000E+00      0.000000000000E+00      0.000000000000E+00      0.000000000000E+00      0.000000000000E+00      0.000000000000E+00
     2      0.197100315363E+09      0.397800000000E+34      0.000000000000E+00      0.000000000000E+00      0.000000000000E+00      0.000000000000E+00      0.000000000000E+00      0.000000000000E+00
     2      0.198677115363E+09      0.397800000000E+34      0.000000000000E+00      0.000000000000E+00      0.000000000000E+00      0.000000000000E+00      0.000000000000E+00      0.000000000000E+00
     2      0.200253915363E+09      0.397800000000E+34      0.000000000000E+00      0.000000000000E+00      0.000000000000E+00      0.000000000000E+00      0.000000000000E+00      0.000000000000E+00
     2      0.201830715363E+09      0.397800000000E+34      0.000000000000E+00      0.000000000000E+00      0.000000000000E+00      0.000000000000E+00      0.000000000000E+00      0.000000000000E+00
     2      0.203407515363E+09      0.397800000000E+34      0.000000000000E+00      0.000000000000E+00      0.000000000000E+00      0.000000000000E+00      0.000000000000E+00      0.000000000000E+00
     2      0.204984315363E+09      0.397800000000E+34      0.000000000000E+00      0.000000000000E+00      0.000000000000E+00      0.000000000000E+00      0.000000000000E+00      0.000000000000E+00
     2      0.206561115363E+09      0.397800000000E+34      0.000000000000E+00      0.000000000000E+00      0.000000000000E+00      0.000000000000E+00      0.000000000000E+00      0.000000000000E+00
     2      0.208137915363E+09      0.397800000000E+34      0.000000000000E+00      0.000000000000E+00      0.000000000000E+00      0.000000000000E+00      0.000000000000E+00      0.000000000000E+00
     2      0.209714715363E+09      0.397800000000E+34      0.000000000000E+00      0.000000000000E+00      0.000000000000E+00      0.000000000000E+00      0.000000000000E+00      0.000000000000E+00
     2      0.211291515363E+09      0.397800000000E+34      0.000000000000E+00      0.000000000000E+00      0.000000000000E+00      0.000000000000E+00      0.000000000000E+00      0.000000000000E+00
     2      0.212868315363E+09      0.397800000000E+34      0.000000000000E+00      0.000000000000E+00      0.000000000000E+00      0.000000000000E+00      0.000000000000E+00      0.000000000000E+00
     2      0.214445115363E+09      0.397800000000E+34      0.000000000000E+00      0.000000000000E+00      0.000000000000E+00      0.000000000000E+00      0.000000000000E+00      0.000000000000E+00
     2      0.216021915363E+09      0.397800000000E+34      0.000000000000E+00      0.000000000000E+00      0.000000000000E+00      0.000000000000E+00      0.000000000000E+00      0.000000000000E+00
     2      0.217598715364E+09      0.397800000000E+34      0.000000000000E+00      0.000000000000E+00      0.000000000000E+00      0.000000000000E+00      0.000000000000E+00      0.000000000000E+00
     2      0.219175515364E+09      0.397800000000E+34      0.000000000000E+00      0.000000000000E+00      0.000000000000E+00      0.000000000000E+00      0.000000000000E+00      0.000000000000E+00
     2      0.220752315364E+09      0.397800000000E+34      0.000000000000E+00      0.000000000000E+00      0.000000000000E+00      0.000000000000E+00      0.000000000000E+00      0.000000000000E+00
     2      0.222329115364E+09      0.397800000000E+34      0.000000000000E+00      0.000000000000E+00      0.000000000000E+00      0.000000000000E+00      0.000000000000E+00      0.000000000000E+00
     2      0.223905915364E+09      0.397800000000E+34      0.000000000000E+00      0.000000000000E+00      0.000000000000E+00      0.000000000000E+00      0.000000000000E+00      0.000000000000E+00
     2      0.225482715364E+09      0.397800000000E+34      0.000000000000E+00      0.000000000000E+00      0.000000000000E+00      0.000000000000E+00      0.000000000000E+00      0.000000000000E+00
     2      0.227059515364E+09      0.397800000000E+34      0.000000000000E+00      0.000000000000E+00      0.000000000000E+00      0.000000000000E+00      0.000000000000E+00      0.000000000000E+00
     2      0.228636315364E+09      0.397800000000E+34      0.000000000000E+00      0.000000000000E+00      0.000000000000E+00      0.000000000000E+00      0.000000000000E+00      0.000000000000E+00
     2      0.230213115364E+09      0.397800000000E+34      0.000000000000E+00      0.000000000000E+00      0.000000000000E+00      0.000000000000E+00      0.000000000000E+00      0.000000000000E+00
     2      0.231789915364E+09      0.397800000000E+34      0.000000000000E+00      0.000000000000E+00      0.000000000000E+00      0.000000000000E+00      0.000000000000E+00      0.000000000000E+00
     2      0.233366715364E+09      0.397800000000E+34      0.000000000000E+00      0.000000000000E+00      0.000000000000E+00      0.000000000000E+00      0.000000000000E+00      0.000000000000E+00
     2      0.234943515364E+09      0.397800000000E+34      0.000000000000E+00      0.000000000000E+00      0.000000000000E+00      0.000000000000E+00      0.000000000000E+00      0.000000000000E+00
     2      0.236520315364E+09      0.397800000000E+34      0.000000000000E+00      0.000000000000E+00      0.000000000000E+00      0.000000000000E+00      0.000000000000E+00      0.000000000000E+00
     2      0.238097115364E+09      0.397800000000E+34      0.000000000000E+00      0.000000000000E+00      0.000000000000E+00      0.000000000000E+00      0.000000000000E+00      0.000000000000E+00
     2      0.239673915365E+09      0.397800000000E+34      0.000000000000E+00      0.000000000000E+00      0.000000000000E+00      0.000000000000E+00      0.000000000000E+00      0.000000000000E+00
     2      0.241250715365E+09      0.397800000000E+34      0.000000000000E+00      0.000000000000E+00      0.000000000000E+00      0.000000000000E+00      0.000000000000E+00      0.000000000000E+00
     2      0.242827515365E+09      0.397800000000E+34      0.000000000000E+00      0.000000000000E+00      0.000000000000E+00      0.000000000000E+00      0.000000000000E+00      0.000000000000E+00
     2      0.244404315365E+09      0.397800000000E+34      0.000000000000E+00      0.000000000000E+00      0.000000000000E+00      0.000000000000E+00      0.000000000000E+00      0.000000000000E+00
     2      0.245981115365E+09      0.397800000000E+34      0.000000000000E+00      0.000000000000E+00      0.000000000000E+00      0.000000000000E+00      0.000000000000E+00      0.000000000000E+00
     2      0.247557915365E+09      0.397800000000E+34      0.000000000000E+00      0.000000000000E+00      0.000000000000E+00      0.000000000000E+00      0.000000000000E+00      0.000000000000E+00
     2      0.249134715365E+09      0.397800000000E+34      0.000000000000E+00      0.000000000000E+00      0.000000000000E+00      0.000000000000E+00      0.000000000000E+00      0.000000000000E+00
     2      0.250711515365E+09      0.397800000000E+34      0.000000000000E+00      0.000000000000E+00      0.000000000000E+00      0.000000000000E+00      0.000000000000E+00      0.000000000000E+00
     2      0.252288315365E+09      0.397800000000E+34      0.000000000000E+00      0.000000000000E+00      0.000000000000E+00      0.000000000000E+00      0.000000000000E+00      0.000000000000E+00
     2      0.253865115365E+09      0.397800000000E+34      0.000000000000E+00      0.000000000000E+00      0.000000000000E+00      0.000000000000E+00      0.000000000000E+00      0.000000000000E+00
     2      0.255441915365E+09      0.397800000000E+34      0.000000000000E+00      0.000000000000E+00      0.000000000000E+00      0.000000000000E+00      0.000000000000E+00      0.000000000000E+00
     2      0.257018715365E+09      0.397800000000E+34      0.000000000000E+00      0.000000000000E+00      0.000000000000E+00      0.000000000000E+00      0.000000000000E+00      0.000000000000E+00
     2      0.258595515365E+09      0.397800000000E+34      0.000000000000E+00      0.000000000000E+00      0.000000000000E+00      0.000000000000E+00      0.000000000000E+00      0.000000000000E+00
     2      0.260172315365E+09      0.397800000000E+34      0.000000000000E+00      0.000000000000E+00      0.000000000000E+00      0.000000000000E+00      0.000000000000E+00      0.000000000000E+00
     2      0.261749115366E+09      0.397800000000E+34      0.000000000000E+00      0.000000000000E+00      0.000000000000E+00      0.000000000000E+00      0.000000000000E+00      0.000000000000E+00
     2      0.263325915366E+09      0.397800000000E+34      0.000000000000E+00      0.000000000000E+00      0.000000000000E+00      0.000000000000E+00      0.000000000000E+00      0.000000000000E+00
     2      0.264902715366E+09      0.397800000000E+34      0.000000000000E+00      0.000000000000E+00      0.000000000000E+00      0.000000000000E+00      0.000000000000E+00      0.000000000000E+00
     2      0.266479515366E+09      0.397800000000E+34      0.000000000000E+00      0.000000000000E+00      0.000000000000E+00      0.000000000000E+00      0.000000000000E+00      0.000000000000E+00
     2      0.268056315366E+09      0.397800000000E+34      0.000000000000E+00      0.000000000000E+00      0.000000000000E+00      0.000000000000E+00      0.000000000000E+00      0.000000000000E+00
     2      0.269633115366E+09      0.397800000000E+34      0.000000000000E+00      0.000000000000E+00      0.000000000000E+00      0.000000000000E+00      0.000000000000E+00      0.000000000000E+00
     2      0.271209915366E+09      0.397800000000E+34      0.000000000000E+00      0.000000000000E+00      0.000000000000E+00      0.000000000000E+00      0.000000000000E+00      0.000000000000E+00
     2      0.272786715366E+09      0.397800000000E+34      0.000000000000E+00      0.000000000000E+00      0.000000000000E+00      0.000000000000E+00      0.000000000000E+00      0.000000000000E+00
     2      0.274363515366E+09      0.397800000000E+34      0.000000000000E+00      0.000000000000E+00      0.000000000000E+00      0.000000000000E+00      0.000000000000E+00      0.000000000000E+00
     2      0.275940315366E+09      0.397800000000E+34      0.000000000000E+00      0.000000000000E+00      0.000000000000E+00      0.000000000000E+00      0.000000000000E+00      0.000000000000E+00
     2      0.277517115366E+09      0.397800000000E+34      0.000000000000E+00      0.000000000000E+00      0.000000000000E+00      0.000000000000E+00      0.000000000000E+00      0.000000000000E+00
     2      0.279093915366E+09      0.397800000000E+34      0.000000000000E+00      0.000000000000E+00      0.000000000000E+00      0.000000000000E+00      0.000000000000E+00      0.000000000000E+00
     2      0.280670715366E+09      0.397800000000E+34      0.000000000000E+00      0.000000000000E+00      0.000000000000E+00      0.000000000000E+00      0.000000000000E+00      0.000000000000E+00
     2      0.282247515366E+09      0.397800000000E+34      0.000000000000E+00      0.000000000000E+00      0.000000000000E+00      0.000000000000E+00      0.000000000000E+00      0.000000000000E+00
     2      0.283824315367E+09      0.397800000000E+34      0.000000000000E+00      0.000000000000E+00      0.000000000000E+00      0.000000000000E+00      0.000000000000E+00      0.000000000000E+00
     2      0.285401115367E+09      0.397800000000E+34      0.000000000000E+00      0.000000000000E+00      0.000000000000E+00      0.000000000000E+00      0.000000000000E+00      0.000000000000E+00
     2      0.286977915367E+09      0.397800000000E+34      0.000000000000E+00      0.000000000000E+00      0.000000000000E+00      0.000000000000E+00      0.000000000000E+00      0.000000000000E+00
     2      0.288554715367E+09      0.397800000000E+34      0.000000000000E+00      0.000000000000E+00      0.000000000000E+00      0.000000000000E+00      0.000000000000E+00      0.000000000000E+00
     2      0.290131515367E+09      0.397800000000E+34      0.000000000000E+00      0.000000000000E+00      0.000000000000E+00      0.000000000000E+00      0.000000000000E+00      0.000000000000E+00
     2      0.291708315367E+09      0.397800000000E+34      0.000000000000E+00      0.000000000000E+00      0.000000000000E+00      0.000000000000E+00      0.000000000000E+00      0.000000000000E+00
     2      0.293285115367E+09      0.397800000000E+34      0.000000000000E+00      0.000000000000E+00      0.000000000000E+00      0.000000000000E+00      0.000000000000E+00      0.000000000000E+00
     2      0.294861915367E+09      0.397800000000E+34      0.000000000000E+00      0.000000000000E+00      0.000000000000E+00      0.000000000000E+00      0.000000000000E+00      0.000000000000E+00
     2      0.296438715367E+09      0.397800000000E+34      0.000000000000E+00      0.000000000000E+00      0.000000000000E+00      0.000000000000E+00      0.000000000000E+00      0.000000000000E+00
     2      0.298015515367E+09      0.397800000000E+34      0.000000000000E+00      0.000000000000E+00      0.000000000000E+00      0.000000000000E+00      0.000000000000E+00      0.000000000000E+00
     2      0.299592315367E+09      0.397800000000E+34      0.000000000000E+00      0.000000000000E+00      0.000000000000E+00      0.000000000000E+00      0.000000000000E+00      0.000000000000E+00
     2      0.301169115367E+09      0.397800000000E+34      0.000000000000E+00      0.000000000000E+00      0.000000000000E+00      0.000000000000E+00      0.000000000000E+00      0.000000000000E+00
     2      0.302745915367E+09      0.397800000000E+34      0.000000000000E+00      0.000000000000E+00      0.000000000000E+00      0.000000000000E+00      0.000000000000E+00      0.000000000000E+00
     2      0.304322715367E+09      0.397800000000E+34      0.000000000000E+00      0.000000000000E+00      0.000000000000E+00      0.000000000000E+00      0.000000000000E+00      0.000000000000E+00
     2      0.305899515368E+09      0.397800000000E+34      0.000000000000E+00      0.000000000000E+00      0.000000000000E+00      0.000000000000E+00      0.000000000000E+00      0.000000000000E+00
     2      0.307476315368E+09      0.397800000000E+34      0.000000000000E+00      0.000000000000E+00      0.000000000000E+00      0.000000000000E+00      0.000000000000E+00      0.000000000000E+00
     2      0.309053115368E+09      0.397800000000E+34      0.000000000000E+00      0.000000000000E+00      0.000000000000E+00      0.000000000000E+00      0.000000000000E+00      0.000000000000E+00
     2      0.310629915368E+09      0.397800000000E+34      0.000000000000E+00      0.000000000000E+00      0.000000000000E+00      0.000000000000E+00      0.000000000000E+00      0.000000000000E+00
     2      0.312206715368E+09      0.397800000000E+34      0.000000000000E+00      0.000000000000E+00      0.000000000000E+00      0.000000000000E+00      0.000000000000E+00      0.000000000000E+00
     2      0.313783515368E+09      0.397800000000E+34      0.000000000000E+00      0.000000000000E+00      0.000000000000E+00      0.000000000000E+00      0.000000000000E+00      0.000000000000E+00
