Time [sec]         ,# Tag         ,Mass [g]     ,posx [code]    ,posy [code]   ,velx [code]    ,vely [code]    ,accx [code]    ,accy [code]
1608336.0 1.00000000e+00 1.98900000e+33 -2.97612558e+13 2.43062642e+12 1.96703948e+05 1.50383833e+06 1.21787162e-01 -1.40529874e-02 
3185136.0 1.00000000e+00 1.98900000e+33 -2.93004378e+13 4.77891726e+12 3.87215691e+05 1.47114241e+06 1.19572631e-01 -2.76440783e-02 
4761936.0 1.00000000e+00 1.98900000e+33 -2.85425469e+13 7.05888581e+12 5.73137309e+05 1.41727386e+06 1.15945570e-01 -4.08722486e-02 
6338736.0 1.00000000e+00 1.98900000e+33 -2.74965536e+13 9.23766604e+12 7.52287938e+05 1.34293429e+06 1.10969849e-01 -5.35726296e-02 
7915536.0 1.00000000e+00 1.98900000e+33 -2.61747788e+13 1.12836967e+13 9.22603584e+05 1.24907260e+06 1.04729489e-01 -6.55974284e-02 
9492336.0 1.00000000e+00 1.98900000e+33 -2.45926873e+13 1.31670886e+13 1.08216525e+06 1.13685540e+06 9.73238369e-02 -7.68190525e-02 
11069136.0 1.00000000e+00 1.98900000e+33 -2.27686411e+13 1.48599420e+13 1.22921910e+06 1.00763393e+06 8.88623784e-02 -8.71314721e-02 
12645936.0 1.00000000e+00 1.98900000e+33 -2.07236294e+13 1.63366111e+13 1.36218853e+06 8.62910023e+05 7.94597388e-02 -9.64498997e-02 
14222736.0 1.00000000e+00 1.98900000e+33 -1.84809840e+13 1.75739155e+13 1.47967879e+06 7.04303849e+05 6.92312974e-02 -1.04709053e-01 
15799536.0 1.00000000e+00 1.98900000e+33 -1.60660933e+13 1.85513035e+13 1.58047536e+06 5.33525174e+05 5.82897342e-02 -1.11860369e-01 
17376336.0 1.00000000e+00 1.98900000e+33 -1.35061227e+13 1.92509740e+13 1.66353770e+06 3.52349593e+05 4.67426778e-02 -1.17868580e-01 
18953136.0 1.00000000e+00 1.98900000e+33 -1.08297468e+13 1.96579654e+13 1.72799026e+06 1.62600389e+05 3.46915002e-02 -1.22708043e-01 
20529936.0 1.00000000e+00 1.98900000e+33 -8.06689733e+12 1.97602200e+13 1.77311234e+06 -3.38638475e+04 2.22312064e-02 -1.26359167e-01 
22106736.0 1.00000000e+00 1.98900000e+33 -5.24852672e+12 1.95486337e+13 1.79832863e+06 -2.35156216e+05 9.45130404e-03 -1.28805199e-01 
23683536.0 1.00000000e+00 1.98900000e+33 -2.40638501e+12 1.90170983e+13 1.80320175e+06 -4.39363854e+05 -3.56249914e-03 -1.30029584e-01 
25260336.0 1.00000000e+00 1.98900000e+33 4.27193818e+11 1.81625427e+13 1.78742801e+06 -6.44546669e+05 -1.67259342e-02 -1.30014047e-01 
26837136.0 1.00000000e+00 1.98900000e+33 3.21950194e+12 1.69849788e+13 1.75083727e+06 -8.48733662e+05 -2.99533180e-02 -1.28737503e-01 
28413936.0 1.00000000e+00 1.98900000e+33 5.93767129e+12 1.54875539e+13 1.69339764e+06 -1.04991825e+06 -4.31543809e-02 -1.26175899e-01 
29990736.0 1.00000000e+00 1.98900000e+33 8.54889856e+12 1.36766100e+13 1.61522521e+06 -1.24605411e+06 -5.62309608e-02 -1.22303044e-01 
31567536.0 1.00000000e+00 1.98900000e+33 1.10206897e+13 1.15617488e+13 1.51659903e+06 -1.43505309e+06 -6.90737699e-02 -1.17092511e-01 
33144336.0 1.00000000e+00 1.98900000e+33 1.33211318e+13 9.15589663e+12 1.39798099e+06 -1.61478706e+06 -8.15594768e-02 -1.10520649e-01 
34721136.0 1.00000000e+00 1.98900000e+33 1.54192002e+13 6.47536255e+12 1.26003983e+06 -1.78309532e+06 -9.35483979e-02 -1.02570716e-01 
36297936.0 1.00000000e+00 1.98900000e+33 1.72851051e+13 3.53987911e+12 1.10367812e+06 -1.93779938e+06 -1.04883142e-01 -9.32380901e-02 
37874736.0 1.00000000e+00 1.98900000e+33 1.88906829e+13 3.72613016e+11 9.30060407e+05 -2.07672671e+06 -1.15388598e-01 -8.25364166e-02 
39451536.0 1.00000000e+00 1.98900000e+33 2.02098306e+13 -2.99986976e+12 7.40640045e+05 -2.19774475e+06 -1.24873688e-01 -7.05043890e-02 
41028336.0 1.00000000e+00 1.98900000e+33 2.12189797e+13 -6.54770088e+12 5.37181684e+05 -2.29880578e+06 -1.33135249e-01 -5.72127234e-02 
42605136.0 1.00000000e+00 1.98900000e+33 2.18976001e+13 -1.02378859e+13 3.21775774e+05 -2.37800256e+06 -1.39964349e-01 -4.27706637e-02 
44181936.0 1.00000000e+00 1.98900000e+33 2.22287170e+13 -1.40345761e+13 9.68411771e+04 -2.43363334e+06 -1.45155095e-01 -2.73311911e-02 
45758736.0 1.00000000e+00 1.98900000e+33 2.21994215e+13 -1.78994482e+13 -1.34887925e+05 -2.46427349e+06 -1.48515726e-01 -1.10939873e-02 
47335536.0 1.00000000e+00 1.98900000e+33 2.18013447e+13 -2.17921995e+13 -3.70394014e+05 -2.46884938e+06 -1.49881376e-01 5.69479722e-03 
48912336.0 1.00000000e+00 1.98900000e+33 2.10310661e+13 -2.56711582e+13 -6.06429002e+05 -2.44670903e+06 -1.49127487e-01 2.27467448e-02 
50489136.0 1.00000000e+00 1.98900000e+33 1.98904211e+13 -2.94939977e+13 -8.39587776e+05 -2.39768268e+06 -1.46182468e-01 3.97397473e-02 
52065936.0 1.00000000e+00 1.98900000e+33 1.83866791e+13 -3.32185339e+13 -1.06640010e+06 -2.32212654e+06 -1.41038008e-01 5.63308044e-02 
53642736.0 1.00000000e+00 1.98900000e+33 1.65325640e+13 -3.68035743e+13 -1.28343593e+06 -2.22094357e+06 -1.33755451e-01 7.21722266e-02 
55219536.0 1.00000000e+00 1.98900000e+33 1.43461032e+13 -4.02097792e+13 -1.48741692e+06 -2.09557704e+06 -1.24467036e-01 8.69297875e-02 
56796336.0 1.00000000e+00 1.98900000e+33 1.18503016e+13 -4.34004889e+13 -1.67532553e+06 -1.94797503e+06 -1.13371404e-01 1.00300904e-01 
58373136.0 1.00000000e+00 1.98900000e+33 9.07265154e+12 -4.63424742e+13 -1.84450263e+06 -1.78052777e+06 -1.00723590e-01 1.12030777e-01 
59949936.0 1.00000000e+00 1.98900000e+33 6.04450237e+12 -4.90065681e+13 -1.99272578e+06 -1.59598212e+06 -8.68205495e-02 1.21924652e-01 
61526736.0 1.00000000e+00 1.98900000e+33 2.80032713e+12 -5.13681506e+13 -2.11826217e+06 -1.39734073e+06 -7.19839023e-02 1.29854922e-01 
63103536.0 1.00000000e+00 1.98900000e+33 -6.23073234e+11 -5.34074672e+13 -2.21989360e+06 -1.18775426e+06 -5.65419086e-02 1.35762600e-01 
64680336.0 1.00000000e+00 1.98900000e+33 -4.18738247e+12 -5.51097781e+13 -2.29691365e+06 -9.70415545e+05 -4.08126258e-02 1.39653462e-01 
66257136.0 1.00000000e+00 1.98900000e+33 -7.85355736e+12 -5.64653467e+13 -2.34910026e+06 -7.48463249e+05 -2.50898361e-02 1.41589887e-01 
67833936.0 1.00000000e+00 1.98900000e+33 -1.15825567e+13 -5.74692889e+13 -2.37666900e+06 -5.24900931e+05 -9.63274007e-03 1.41679796e-01 
69410736.0 1.00000000e+00 1.98900000e+33 -1.53359854e+13 -5.81213074e+13 -2.38021316e+06 -3.02534728e+05 5.34022355e-03 1.40064225e-01 
70987536.0 1.00000000e+00 1.98900000e+33 -1.90766383e+13 -5.84253449e+13 -2.36063733e+06 -8.39308105e+04 1.96536346e-02 1.36904922e-01 
72564336.0 1.00000000e+00 1.98900000e+33 -2.27689376e+13 -5.83891846e+13 -2.31908991e+06 1.28608351e+05 3.31740287e-02 1.32373059e-01 
74141136.0 1.00000000e+00 1.98900000e+33 -2.63792660e+13 -5.80240265e+13 -2.25689954e+06 3.33051260e+05 4.58063340e-02 1.26639756e-01 
75717936.0 1.00000000e+00 1.98900000e+33 -2.98762059e+13 -5.73440635e+13 -2.17551833e+06 5.27631353e+05 5.74886696e-02 1.19868750e-01 
77294736.0 1.00000000e+00 1.98900000e+33 -3.32306945e+13 -5.63660749e+13 -2.07647419e+06 7.10831101e+05 6.81862917e-02 1.12211245e-01 
78871536.0 1.00000000e+00 1.98900000e+33 -3.64161124e+13 -5.51090514e+13 -1.96133288e+06 8.81359578e+05 7.78853215e-02 1.03802770e-01 
80448336.0 1.00000000e+00 1.98900000e+33 -3.94083199e+13 -5.35938570e+13 -1.83166980e+06 1.03812643e+06 8.65867195e-02 9.47617485e-02 
82025136.0 1.00000000e+00 1.98900000e+33 -4.21856558e+13 -5.18429350e+13 -1.68905096e+06 1.18021471e+06 9.43008014e-02 8.51894456e-02 
83601936.0 1.00000000e+00 1.98900000e+33 -4.47289131e+13 -4.98800554e+13 -1.53502195e+06 1.30685447e+06 1.01042460e-01 7.51709660e-02 
85178736.0 1.00000000e+00 1.98900000e+33 -4.70213027e+13 -4.77301021e+13 -1.37110400e+06 1.41739856e+06 1.06827157e-01 6.47770178e-02 
86755536.0 1.00000000e+00 1.98900000e+33 -4.90484160e+13 -4.54188970e+13 -1.19879563e+06 1.51130165e+06 1.11667674e-01 5.40662161e-02 
88332336.0 1.00000000e+00 1.98900000e+33 -5.07981930e+13 -4.29730529e+13 -1.01957895e+06 1.58810318e+06 1.15571608e-01 4.30877544e-02 
89909136.0 1.00000000e+00 1.98900000e+33 -5.22609040e+13 -4.04198505e+13 -8.34929279e+05 1.64741475e+06 1.18539548e-01 3.18843263e-02 
91485936.0 1.00000000e+00 1.98900000e+33 -5.34291479e+13 -3.77871318e+13 -6.46327238e+05 1.68891222e+06 1.20563912e-01 2.04952143e-02 
93062736.0 1.00000000e+00 1.98900000e+33 -5.42978714e+13 -3.51032012e+13 -4.55272074e+05 1.71233281e+06 1.21628435e-01 8.95949145e-03 
94639536.0 1.00000000e+00 1.98900000e+33 -5.48644086e+13 -3.23967281e+13 -2.63295340e+05 1.71747727e+06 1.21708324e-01 -2.68071696e-03 
96216336.0 1.00000000e+00 1.98900000e+33 -5.51285430e+13 -2.96966416e+13 -7.19737702e+04 1.70421724e+06 1.20771116e-01 -1.43769699e-02 
97793136.0 1.00000000e+00 1.98900000e+33 -5.50925868e+13 -2.70320094e+13 1.17059788e+05 1.67250765e+06 1.18778320e-01 -2.60713347e-02 
99369936.0 1.00000000e+00 1.98900000e+33 -5.47614768e+13 -2.44318935e+13 3.02108668e+05 1.62240406e+06 1.15687898e-01 -3.76934291e-02 
100946736.0 1.00000000e+00 1.98900000e+33 -5.41428777e+13 -2.19251749e+13 4.81409299e+05 1.55408427e+06 1.11457664e-01 -4.91578682e-02 
102523536.0 1.00000000e+00 1.98900000e+33 -5.32472861e+13 -1.95403417e+13 6.53134174e+05 1.46787359e+06 1.06049588e-01 -6.03623636e-02 
104100336.0 1.00000000e+00 1.98900000e+33 -5.20881246e+13 -1.73052346e+13 8.15402300e+05 1.36427237e+06 9.94349645e-02 -7.11867732e-02 
105677136.0 1.00000000e+00 1.98900000e+33 -5.06818117e+13 -1.52467489e+13 9.66298324e+05 1.24398408e+06 9.16002304e-02 -8.14934338e-02 
107253936.0 1.00000000e+00 1.98900000e+33 -4.90477950e+13 -1.33904929e+13 1.10390114e+06 1.10794167e+06 8.25531044e-02 -9.11290880e-02 
108830736.0 1.00000000e+00 1.98900000e+33 -4.72085316e+13 -1.17604081e+13 1.22632211e+06 9.57329504e+05 7.23285283e-02 -9.99286437e-02 
110407536.0 1.00000000e+00 1.98900000e+33 -4.51894002e+13 -1.03783602e+13 1.33175207e+06 7.93597909e+05 6.09937526e-02 -1.07720840e-01 
111984336.0 1.00000000e+00 1.98900000e+33 -4.30185348e+13 -9.26371483e+12 1.41851522e+06 6.18467358e+05 4.86518232e-02 -1.14335662e-01 
113561136.0 1.00000000e+00 1.98900000e+33 -4.07265687e+13 -8.43291630e+12 1.48512686e+06 4.33919906e+05 3.54427611e-02 -1.19613067e-01 
115137936.0 1.00000000e+00 1.98900000e+33 -3.83462877e+13 -7.89909162e+12 1.53035076e+06 2.42176300e+05 2.15418973e-02 -1.23412279e-01 
116714736.0 1.00000000e+00 1.98900000e+33 -3.59121960e+13 -7.67170156e+12 1.55325159e+06 4.56585838e+04 7.15515532e-03 -1.25620711e-01 
118291536.0 1.00000000e+00 1.98900000e+33 -3.34600064e+13 -7.75626153e+12 1.55323771e+06 -1.53060410e+05 -7.48850794e-03 -1.26161492e-01 
119868336.0 1.00000000e+00 1.98900000e+33 -3.10260738e+13 -8.15415058e+12 1.53009011e+06 -3.51317739e+05 -2.21468406e-02 -1.24998646e-01 
121445136.0 1.00000000e+00 1.98900000e+33 -2.86467950e+13 -8.86252139e+12 1.48397512e+06 -5.46426960e+05 -3.65751968e-02 -1.22139303e-01 
123021936.0 1.00000000e+00 1.98900000e+33 -2.63580028e+13 -9.87431668e+12 1.41543962e+06 -7.35745748e+05 -5.05373980e-02 -1.17632706e-01 
124598736.0 1.00000000e+00 1.98900000e+33 -2.41943804e+13 -1.11783898e+13 1.32539005e+06 -9.16739590e+05 -6.38153911e-02 -1.11566248e-01 
126175536.0 1.00000000e+00 1.98900000e+33 -2.21889204e+13 -1.27597200e+13 1.21505769e+06 -1.08703733e+06 -7.62167852e-02 -1.04059169e-01 
127752336.0 1.00000000e+00 1.98900000e+33 -2.03724467e+13 -1.45997062e+13 1.08595401e+06 -1.24447551e+06 -8.75797261e-02 -9.52547985e-02 
129329136.0 1.00000000e+00 1.98900000e+33 -1.87732116e+13 -1.66765216e+13 9.39820614e+05 -1.38713001e+06 -9.77749896e-02 -8.53123174e-02 
130905936.0 1.00000000e+00 1.98900000e+33 -1.74165738e+13 -1.89655071e+13 7.78577767e+05 -1.51333485e+06 -1.06705544e-01 -7.43988998e-02 
132482736.0 1.00000000e+00 1.98900000e+33 -1.63247557e+13 -2.14395857e+13 6.04275337e+05 -1.62168937e+06 -1.14304093e-01 -6.26829276e-02 
134059536.0 1.00000000e+00 1.98900000e+33 -1.55166748e+13 -2.40696801e+13 4.19048736e+05 -1.71105587e+06 -1.20529228e-01 -5.03286865e-02 
135636336.0 1.00000000e+00 1.98900000e+33 -1.50078389e+13 -2.68251203e+13 2.25081566e+05 -1.78055005e+06 -1.25360864e-01 -3.74927171e-02 
137213136.0 1.00000000e+00 1.98900000e+33 -1.48102949e+13 -2.96740329e+13 2.45756798e+04 -1.82952707e+06 -1.28795501e-01 -2.43217793e-02 
138789936.0 1.00000000e+00 1.98900000e+33 -1.49326189e+13 -3.25837057e+13 -1.80271502e+05 -1.85756547e+06 -1.30841804e-01 -1.09522463e-02 
140366736.0 1.00000000e+00 1.98900000e+33 -1.53799364e+13 -3.55209279e+13 -3.87283128e+05 -1.86445110e+06 -1.31516800e-01 2.48934092e-03 
141943536.0 1.00000000e+00 1.98900000e+33 -1.61539642e+13 -3.84523042e+13 -5.94313686e+05 -1.85016258e+06 -1.30842900e-01 1.58848623e-02 
143520336.0 1.00000000e+00 1.98900000e+33 -1.72530654e+13 -4.13445501e+13 -7.99255793e+05 -1.81485955e+06 -1.28845858e-01 2.91226503e-02 
145097136.0 1.00000000e+00 1.98900000e+33 -1.86723130e+13 -4.41647695e+13 -1.00004449e+06 -1.75887413e+06 -1.25553669e-01 4.20952457e-02 
146673936.0 1.00000000e+00 1.98900000e+33 -2.04035598e+13 -4.68807226e+13 -1.19466050e+06 -1.68270612e+06 -1.20996391e-01 5.46971277e-02 
148250736.0 1.00000000e+00 1.98900000e+33 -2.24355129e+13 -4.94610886e+13 -1.38113396e+06 -1.58702156e+06 -1.15206818e-01 6.68226425e-02 
149827536.0 1.00000000e+00 1.98900000e+33 -2.47538154e+13 -5.18757292e+13 -1.55754965e+06 -1.47265429e+06 -1.08221902e-01 7.83643284e-02 
151404336.0 1.00000000e+00 1.98900000e+33 -2.73411389e+13 -5.40959551e+13 -1.72205513e+06 -1.34060973e+06 -1.00084789e-01 8.92118136e-02 
152981136.0 1.00000000e+00 1.98900000e+33 -3.01772909e+13 -5.60948012e+13 -1.87287234e+06 -1.19206990e+06 -9.08473250e-02 9.92514439e-02 
154557936.0 1.00000000e+00 1.98900000e+33 -3.32393439e+13 -5.78473086e+13 -2.00831349e+06 -1.02839830e+06 -8.05728208e-02 1.08366769e-01 
156134736.0 1.00000000e+00 1.98900000e+33 -3.65017934e+13 -5.93308140e+13 -2.12680124e+06 -8.51143351e+05 -6.93388532e-02 1.16439982e-01 
157711536.0 1.00000000e+00 1.98900000e+33 -3.99367507e+13 -6.05252417e+13 -2.22689331e+06 -6.62038784e+05 -5.72398258e-02 1.23354355e-01 
159288336.0 1.00000000e+00 1.98900000e+33 -4.35141777e+13 -6.14133937e+13 -2.30731059e+06 -4.62999434e+05 -4.43889896e-02 1.28997642e-01 
160865136.0 1.00000000e+00 1.98900000e+33 -4.72021679e+13 -6.19812277e+13 -2.36696792e+06 -2.56110988e+05 -3.09196128e-02 1.33266322e-01 
162441936.0 1.00000000e+00 1.98900000e+33 -5.09672778e+13 -6.22181139e+13 -2.40500588e+06 -4.36125251e+04 -1.69850054e-02 1.36070474e-01 
164018736.0 1.00000000e+00 1.98900000e+33 -5.47749070e+13 -6.21170577e+13 -2.42082146e+06 1.72128906e+05 -2.75716267e-03 1.37338940e-01 
165595536.0 1.00000000e+00 1.98900000e+33 -5.85897248e+13 -6.16748764e+13 -2.41409559e+06 3.88651803e+05 1.15761081e-02 1.37024357e-01 
167172336.0 1.00000000e+00 1.98900000e+33 -6.23761360e+13 -6.08923165e+13 -2.38481480e+06 6.03441262e+05 2.58155714e-02 1.35107574e-01 
168749136.0 1.00000000e+00 1.98900000e+33 -6.60987747e+13 -5.97741014e+13 -2.33328502e+06 8.13976203e+05 3.97562854e-02 1.31600976e-01 
170325936.0 1.00000000e+00 1.98900000e+33 -6.97230125e+13 -5.83289011e+13 -2.26013549e+06 1.01778069e+06 5.31943151e-02 1.26550258e-01 
171902736.0 1.00000000e+00 1.98900000e+33 -7.32154641e+13 -5.65692192e+13 -2.16631162e+06 1.21247668e+06 6.59339421e-02 1.20034376e-01 
173479536.0 1.00000000e+00 1.98900000e+33 -7.65444730e+13 -5.45111982e+13 -2.05305648e+06 1.39583515e+06 7.77947785e-02 1.12163520e-01 
175056336.0 1.00000000e+00 1.98900000e+33 -7.96805585e+13 -5.21743468e+13 -1.92188156e+06 1.56582258e+06 8.86181730e-02 1.03075229e-01 
176633136.0 1.00000000e+00 1.98900000e+33 -8.25968104e+13 -4.95811998e+13 -1.77452830e+06 1.72064001e+06 9.82723575e-02 9.29289206e-02 
178209936.0 1.00000000e+00 1.98900000e+33 -8.52692161e+13 -4.67569233e+13 -1.61292280e+06 1.85875263e+06 1.06655923e-01 8.18993244e-02 
179786736.0 1.00000000e+00 1.98900000e+33 -8.76769134e+13 -4.37288826e+13 -1.43912648e+06 1.97890840e+06 1.13699404e-01 7.01693818e-02 
181363536.0 1.00000000e+00 1.98900000e+33 -8.98023643e+13 -4.05261884e+13 -1.25528566e+06 2.08014556e+06 1.19364955e-01 5.79232158e-02 
182940336.0 1.00000000e+00 1.98900000e+33 -9.16314495e+13 -3.71792407e+13 -1.06358316e+06 2.16178941e+06 1.23644307e-01 4.53397089e-02 
184517136.0 1.00000000e+00 1.98900000e+33 -9.31534915e+13 -3.37192845e+13 -8.66194070e+05 2.22343974e+06 1.26555338e-01 3.25871160e-02 
186093936.0 1.00000000e+00 1.98900000e+33 -9.43612105e+13 -3.01779925e+13 -6.65247893e+05 2.26495069e+06 1.28137672e-01 1.98189838e-02 
187670736.0 1.00000000e+00 1.98900000e+33 -9.52506284e+13 -2.65870832e+13 -4.62797981e+05 2.28640539e+06 1.28447759e-01 7.17148990e-03 
189247536.0 1.00000000e+00 1.98900000e+33 -9.58209292e+13 -2.29779821e+13 -2.60798895e+05 2.28808734e+06 1.27553866e-01 -5.23782788e-03 
190824336.0 1.00000000e+00 1.98900000e+33 -9.60742907e+13 -1.93815292e+13 -6.10915186e+04 2.27045090e+06 1.25531300e-01 -1.73100912e-02 
192401136.0 1.00000000e+00 1.98900000e+33 -9.60156983e+13 -1.58277324e+13 1.34604684e+05 2.23409253e+06 1.22458158e-01 -2.89640593e-02 
193977936.0 1.00000000e+00 1.98900000e+33 -9.56527515e+13 -1.23455645e+13 3.24693200e+05 2.17972426e+06 1.18411746e-01 -4.01343048e-02 
195554736.0 1.00000000e+00 1.98900000e+33 -9.49954723e+13 -8.96280018e+12 5.07696949e+05 2.10815062e+06 1.13465765e-01 -5.07688269e-02 
197131536.0 1.00000000e+00 1.98900000e+33 -9.40561223e+13 -5.70588523e+12 6.82250917e+05 2.02024945e+06 1.07688274e-01 -6.08263193e-02 
198708336.0 1.00000000e+00 1.98900000e+33 -9.28490334e+13 -2.59983346e+12 8.47092182e+05 1.91695733e+06 1.01140413e-01 -7.02732720e-02 
200285136.0 1.00000000e+00 1.98900000e+33 -9.13904560e+13 3.31857539e+11 1.00104846e+06 1.79925955e+06 9.38758212e-02 -7.90810519e-02 
201861936.0 1.00000000e+00 1.98900000e+33 -8.96984253e+13 3.06727827e+12 1.14302626e+06 1.66818458e+06 8.59406949e-02 -8.72230672e-02 
203438736.0 1.00000000e+00 1.98900000e+33 -8.77926460e+13 5.58617399e+12 1.27199954e+06 1.52480298e+06 7.73744280e-02 -9.46720945e-02 
205015536.0 1.00000000e+00 1.98900000e+33 -8.56943941e+13 7.87001284e+12 1.38699984e+06 1.37023031e+06 6.82107790e-02 -1.01397830e-01 
206592336.0 1.00000000e+00 1.98900000e+33 -8.34264326e+13 9.90206161e+12 1.48710863e+06 1.20563372e+06 5.84795400e-02 -1.07364718e-01 
208169136.0 1.00000000e+00 1.98900000e+33 -8.10129367e+13 1.16674742e+13 1.57145262e+06 1.03224167e+06 4.82086827e-02 -1.12530121e-01 
209745936.0 1.00000000e+00 1.98900000e+33 -7.84794239e+13 1.31533981e+13 1.63920287e+06 8.51356248e+05 3.74269749e-02 -1.16842903e-01 
211322736.0 1.00000000e+00 1.98900000e+33 -7.58526815e+13 1.43491009e+13 1.68957835e+06 6.64367371e+05 2.61670521e-02 -1.20242544e-01 
212899536.0 1.00000000e+00 1.98900000e+33 -7.31606856e+13 1.52461211e+13 1.72185472e+06 4.72767820e+05 1.44689178e-02 -1.22658911e-01 
214476336.0 1.00000000e+00 1.98900000e+33 -7.04325002e+13 1.58384420e+13 1.73537884e+06 2.78168061e+05 2.38380519e-03 -1.24012872e-01 
216053136.0 1.00000000e+00 1.98900000e+33 -6.76981501e+13 1.61226876e+13 1.72958967e+06 8.23092954e+04 -1.00217242e-02 -1.24217965e-01 
217629936.0 1.00000000e+00 1.98900000e+33 -6.49884542e+13 1.60983372e+13 1.70404561e+06 -1.12927062e+05 -2.26616593e-02 -1.23183322e-01 
219206736.0 1.00000000e+00 1.98900000e+33 -6.23348121e+13 1.57679503e+13 1.65845820e+06 -3.05515625e+05 -3.54267203e-02 -1.20818063e-01 
220783536.0 1.00000000e+00 1.98900000e+33 -5.97689319e+13 1.51373910e+13 1.59273132e+06 -4.93291432e+05 -4.81812935e-02 -1.17037277e-01 
222360336.0 1.00000000e+00 1.98900000e+33 -5.73224937e+13 1.42160384e+13 1.50700423e+06 -6.73964978e+05 -6.07616918e-02 -1.11769553e-01 
223937136.0 1.00000000e+00 1.98900000e+33 -5.50267429e+13 1.30169622e+13 1.40169602e+06 -8.45150193e+05 -7.29763943e-02 -1.04965827e-01 
225513936.0 1.00000000e+00 1.98900000e+33 -5.29120158e+13 1.15570436e+13 1.27754761e+06 -1.00440705e+06 -8.46089110e-02 -9.66089738e-02 
227090736.0 1.00000000e+00 1.98900000e+33 -5.10072027e+13 9.85701695e+12 1.13565697e+06 -1.14929930e+06 -9.54237831e-02 -8.67232585e-02 
228667536.0 1.00000000e+00 1.98900000e+33 -4.93391649e+13 7.94140864e+12 9.77502202e+05 -1.27746629e+06 -1.05175920e-01 -7.53824319e-02 
230244336.0 1.00000000e+00 1.98900000e+33 -4.79321284e+13 5.83835399e+12 8.04947535e+05 -1.38670554e+06 -1.13622997e-01 -6.27150849e-02 
231821136.0 1.00000000e+00 1.98900000e+33 -4.68070834e+13 3.57927867e+12 6.20227901e+05 -1.47506087e+06 -1.20540042e-01 -4.89059252e-02 
233397936.0 1.00000000e+00 1.98900000e+33 -4.59812284e+13 1.19844156e+12 4.25909696e+05 -1.54090862e+06 -1.25734769e-01 -3.41920081e-02 
234974736.0 1.00000000e+00 1.98900000e+33 -4.54674935e+13 -1.26765148e+12 2.24828003e+05 -1.58303385e+06 -1.29061769e-01 -1.88536323e-02 
236551536.0 1.00000000e+00 1.98900000e+33 -4.52741800e+13 -3.78094082e+12 2.00035667e+04 -1.60068842e+06 -1.30433614e-01 -3.20048741e-03 
238128336.0 1.00000000e+00 1.98900000e+33 -4.54047429e+13 -6.30257883e+12 -1.85454252e+05 -1.59362431e+06 -1.29827223e-01 1.24454835e-02 
239705136.0 1.00000000e+00 1.98900000e+33 -4.58577323e+13 -8.79372652e+12 -3.88450254e+05 -1.56209890e+06 -1.27284573e-01 2.77684089e-02 
241281936.0 1.00000000e+00 1.98900000e+33 -4.66268945e+13 -1.12163356e+13 -5.86002850e+05 -1.50685169e+06 -1.22907724e-01 4.24756955e-02 
242858736.0 1.00000000e+00 1.98900000e+33 -4.77014229e+13 -1.35338738e+13 -7.75331817e+05 -1.42905629e+06 -1.16849090e-01 5.63120877e-02 
244435536.0 1.00000000e+00 1.98900000e+33 -4.90663330e+13 -1.57119587e+13 -9.53928001e+05 -1.33025350e+06 -1.09298507e-01 6.90692110e-02 
246012336.0 1.00000000e+00 1.98900000e+33 -5.07029306e+13 -1.77188760e+13 -1.11960136e+06 -1.21227324e+06 -1.00468966e-01 8.05900855e-02 
247589136.0 1.00000000e+00 1.98900000e+33 -5.25893380e+13 -1.95259709e+13 -1.27050662e+06 -1.07715312e+06 -9.05827909e-02 9.07689064e-02 
249165936.0 1.00000000e+00 1.98900000e+33 -5.47010445e+13 -2.11079139e+13 -1.40514841e+06 -9.27060420e+05 -7.98596046e-02 9.95469883e-02 
250742736.0 1.00000000e+00 1.98900000e+33 -5.70114503e+13 -2.24428485e+13 -1.52236937e+06 -7.64222728e+05 -6.85069509e-02 1.06906078e-01 
252319536.0 1.00000000e+00 1.98900000e+33 -5.94923818e+13 -2.35124398e+13 -1.62132574e+06 -5.90870310e+05 -5.67138563e-02 1.12860282e-01 
253896336.0 1.00000000e+00 1.98900000e+33 -6.21145614e+13 -2.43018412e+13 -1.70145502e+06 -4.09191585e+05 -4.46472202e-02 1.17447670e-01 
255473136.0 1.00000000e+00 1.98900000e+33 -6.48480224e+13 -2.47996027e+13 -1.76243988e+06 -2.21301542e+05 -3.24506296e-02 1.20722389e-01 
257049936.0 1.00000000e+00 1.98900000e+33 -6.76624673e+13 -2.49975371e+13 -1.80417174e+06 -2.92218763e+04 -2.02450635e-02 1.22747766e-01 
258626736.0 1.00000000e+00 1.98900000e+33 -7.05275692e+13 -2.48905647e+13 -1.82671657e+06 1.65128983e+05 -8.13093307e-03 1.23590699e-01 
260203536.0 1.00000000e+00 1.98900000e+33 -7.34132224e+13 -2.44765473e+13 -1.83028455e+06 3.59938012e+05 3.80904113e-03 1.23317366e-01 
261780336.0 1.00000000e+00 1.98900000e+33 -7.62897496e+13 -2.37561246e+13 -1.81520476e+06 5.53493967e+05 1.55065217e-02 1.21990211e-01 
263357136.0 1.00000000e+00 1.98900000e+33 -7.91280724e+13 -2.27325590e+13 -1.78190512e+06 7.44179906e+05 2.69041248e-02 1.19666061e-01 
264933936.0 1.00000000e+00 1.98900000e+33 -8.18998552e+13 -2.14115944e+13 -1.73089772e+06 9.30463509e+05 3.79520839e-02 1.16395207e-01 
266510736.0 1.00000000e+00 1.98900000e+33 -8.45776296e+13 -1.98013313e+13 -1.66276924e+06 1.11088659e+06 4.86051502e-02 1.12221303e-01 
268087536.0 1.00000000e+00 1.98900000e+33 -8.71349075e+13 -1.79121173e+13 -1.57817602e+06 1.28405498e+06 5.88198220e-02 1.07181910e-01 
269664336.0 1.00000000e+00 1.98900000e+33 -8.95462899e+13 -1.57564540e+13 -1.47784320e+06 1.44862971e+06 6.85519585e-02 1.01309596e-01 
271241136.0 1.00000000e+00 1.98900000e+33 -9.17875768e+13 -1.33489156e+13 -1.36256730e+06 1.60332024e+06 7.77548201e-02 9.46334562e-02 
272817936.0 1.00000000e+00 1.98900000e+33 -9.38358840e+13 -1.07060754e+13 -1.23322155e+06 1.74688043e+06 8.63775688e-02 8.71810003e-02 
274394736.0 1.00000000e+00 1.98900000e+33 -9.56697693e+13 -7.84643773e+12 -1.09076317e+06 1.87810766e+06 9.43642634e-02 7.89803042e-02 
275971536.0 1.00000000e+00 1.98900000e+33 -9.72693715e+13 -4.79036741e+12 -9.36241893e+05 1.99584550e+06 1.01653392e-01 7.00623683e-02 
277548336.0 1.00000000e+00 1.98900000e+33 -9.86165634e+13 -1.56001214e+12 -7.70808691e+05 2.09899025e+06 1.08177979e-01 6.04635858e-02 
279125136.0 1.00000000e+00 1.98900000e+33 -9.96951179e+13 1.82078821e+12 -5.95723949e+05 2.18650137e+06 1.13866321e-01 5.02282219e-02 
280701936.0 1.00000000e+00 1.98900000e+33 -1.00490886e+14 5.32661191e+12 -4.12363930e+05 2.25741571e+06 1.18643360e-01 3.94107760e-02 
282278736.0 1.00000000e+00 1.98900000e+33 -1.00991983e+14 8.93059108e+12 -2.22224571e+05 2.31086534e+06 1.22432724e-01 2.80780773e-02 
283855536.0 1.00000000e+00 1.98900000e+33 -1.01188977e+14 1.26045778e+13 -2.69215825e+04 2.34609832e+06 1.25159388e-01 1.63109442e-02 
285432336.0 1.00000000e+00 1.98900000e+33 -1.01075076e+14 1.63193451e+13 1.71814104e+05 2.36250170e+06 1.26752895e-01 4.20522629e-03 
287009136.0 1.00000000e+00 1.98900000e+33 -1.00646303e+14 2.00448245e+13 3.72146296e+05 2.35962545e+06 1.27150984e-01 -8.12794501e-03 
288585936.0 1.00000000e+00 1.98900000e+33 -9.99016474e+13 2.37503824e+13 5.72149417e+05 2.33720624e+06 1.26303431e-01 -2.05628436e-02 
290162736.0 1.00000000e+00 1.98900000e+33 -9.88431926e+13 2.74051315e+13 7.69830456e+05 2.29518924e+06 1.24175857e-01 -3.29608662e-02 
291739536.0 1.00000000e+00 1.98900000e+33 -9.74761993e+13 3.09782747e+13 9.63156688e+05 2.23374637e+06 1.20753186e-01 -4.51732944e-02 
293316336.0 1.00000000e+00 1.98900000e+33 -9.58091438e+13 3.44394740e+13 1.15008839e+06 2.15328957e+06 1.16042452e-01 -5.70450204e-02 
294893136.0 1.00000000e+00 1.98900000e+33 -9.38537002e+13 3.77592349e+13 1.32861527e+06 2.05447743e+06 1.10074670e-01 -6.84190480e-02 
296469936.0 1.00000000e+00 1.98900000e+33 -9.16246641e+13 4.09092958e+13 1.49679502e+06 1.93821436e+06 1.02905522e-01 -7.91414864e-02 
298046736.0 1.00000000e+00 1.98900000e+33 -8.91398146e+13 4.38630098e+13 1.65279186e+06 1.80564176e+06 9.46147449e-02 -8.90666779e-02 
299623536.0 1.00000000e+00 1.98900000e+33 -8.64197172e+13 4.65957059e+13 1.79491319e+06 1.65812114e+06 8.53042069e-02 -9.80620678e-02 
301200336.0 1.00000000e+00 1.98900000e+33 -8.34874717e+13 4.90850183e+13 1.92164219e+06 1.49721016e+06 7.50947863e-02 -1.06012434e-01 
302777136.0 1.00000000e+00 1.98900000e+33 -8.03684129e+13 5.13111724e+13 2.03166478e+06 1.32463260e+06 6.41223076e-02 -1.12823155e-01 
304353936.0 1.00000000e+00 1.98900000e+33 -7.70897742e+13 5.32572203e+13 2.12388962e+06 1.14224408e+06 5.25328591e-02 -1.18422300e-01 
305930736.0 1.00000000e+00 1.98900000e+33 -7.36803253e+13 5.49092202e+13 2.19746049e+06 9.51995540e+05 4.04778764e-02 -1.22761427e-01 
307507536.0 1.00000000e+00 1.98900000e+33 -7.01699975e+13 5.62563573e+13 2.25176100e+06 7.55896341e+05 2.81093712e-02 -1.25815139e-01 
309084336.0 1.00000000e+00 1.98900000e+33 -6.65895056e+13 5.72910079e+13 2.28641213e+06 5.55979032e+05 1.55756415e-02 -1.27579520e-01 
310661136.0 1.00000000e+00 1.98900000e+33 -6.29699808e+13 5.80087501e+13 2.30126345e+06 3.54267252e+05 3.01772373e-03 -1.28069700e-01 
312237936.0 1.00000000e+00 1.98900000e+33 -5.93426196e+13 5.84083274e+13 2.29637959e+06 1.52747989e+05 -9.43324903e-03 -1.27316819e-01 
313814736.0 1.00000000e+00 1.98900000e+33 -5.57383581e+13 5.84915721e+13 2.27202313e+06 -4.66511054e+04 -2.16577157e-02 -1.25364685e-01 
